Folder: RHEA-MEng-project/data/XRD

File: TiVNbHfCr_5-90deg_OEC_1_06dec23.ASC
5.00836 427 20.664
5.29736 406.083 20.1515
5.58636 377.937 19.4406
5.87536 386.148 19.6506
6.16436 399.197 19.9799
6.45336 375.188 19.3698
6.74236 382.296 19.5524
7.03136 369.095 19.2118
7.32036 381.951 19.5436
7.60936 364.087 19.0811
7.89836 377.116 19.4195
8.18736 354.765 18.8352
8.47636 361.458 19.012
8.76536 327.453 18.0957
9.05436 314.026 17.7208
9.34336 354.478 18.8276
9.63236 337.719 18.3771
9.92136 354.939 18.8398
10.2104 333.2 18.2538
10.4994 362.904 19.05
10.7884 343.889 18.5442
11.0774 353.858 18.8111
11.3664 326.538 18.0704
11.6554 374.689 19.3569
11.9444 370.487 19.248
12.2334 352.049 18.763
12.5224 356.91 18.8921
12.8114 393.122 19.8273
13.1004 340.466 18.4517
13.3894 363.732 19.0718
13.6784 354.507 18.8284
13.9674 354.683 18.833
14.2564 348.803 18.6763
14.5454 365.38 19.1149
14.8344 344.824 18.5694
15.1234 346.884 18.6248
15.4124 338.852 18.4079
15.7014 337.839 18.3804
15.9904 341.163 18.4706
16.2794 350.815 18.73
16.5684 355.212 18.8471
16.8574 348.595 18.6707
17.1464 370.87 19.258
17.4354 351.04 18.736
17.7244 352.924 18.7863
18.0134 341.347 18.4756
18.3024 334.4 18.2866
18.5914 349.634 18.6985
18.8804 324.858 18.0238
19.1694 349.547 18.6962
19.4584 350.759 18.7286
19.7474 377.716 19.4349
20.0364 332.562 18.2363
20.3254 350.076 18.7103
20.6144 337.748 18.3779
20.9034 367.527 19.171
21.1924 342.069 18.4951
21.4814 353.71 18.8072
21.7704 339.929 18.4372
22.0594 348.519 18.6687
22.3484 349.536 18.6959
22.6374 339.587 18.4279
22.9264 346.844 18.6238
23.2154 334.366 18.2857
23.5044 307.453 17.5343
23.7934 350.807 18.7298
24.0824 330.553 18.1811
24.3714 357.319 18.9029
24.6604 316.245 17.7833
24.9494 339.6 18.4282
25.2384 349.362 18.6912
25.5274 332.665 18.2391
25.8164 312.591 17.6803
26.1054 345.351 18.5836
26.3944 343.647 18.5377
26.6834 315.579 17.7646
26.9724 332.035 18.2218
27.2614 327.41 18.0945
27.5504 326.168 18.0601
27.8394 343.446 18.5323
28.1284 323.502 17.9862
28.4174 362 19.0263
28.7064 355.445 18.8533
28.9954 329.728 18.1584
29.2844 304.206 17.4415
29.5734 300.575 17.3371
29.8624 318.678 17.8516
30.1514 369.195 19.2144
30.4404 464.626 21.5552
30.7294 581.872 24.122
31.0184 650.042 25.4959
31.3074 820.51 28.6446
31.5964 1146.09 33.8539
31.8854 708.415 26.6161
32.1744 428.557 20.7016
32.4634 378.361 19.4515
32.7524 318.533 17.8475
33.0414 343.141 18.5241
33.3304 316.973 17.8037
33.6194 327.575 18.099
33.9084 331.908 18.2184
34.1974 321.672 17.9352
34.4864 327.716 18.1029
34.7754 328.291 18.1188
35.0644 347.22 18.6338
35.3534 371.492 19.2741
35.6424 409.074 20.2256
35.9314 385.98 19.6464
36.2204 457.869 21.3979
36.5094 490.614 22.1498
36.7984 514.996 22.6935
37.0874 364.718 19.0976
37.3764 335.068 18.3049
37.6654 337.287 18.3654
37.9544 343.59 18.5362
38.2434 385.999 19.6468
38.5324 382.713 19.563
38.8214 357.113 18.8974
39.1104 382.977 19.5698
39.3994 379.747 19.4871
39.6884 371.347 19.2704
39.9774 385.941 19.6454
40.2664 369.006 19.2095
40.5554 423.705 20.5841
40.8444 442.788 21.0425
41.1334 468.163 21.6371
41.4224 449.13 21.1927
41.7114 434.188 20.8372
42.0004 435.518 20.8691
42.2894 738.458 27.1746
42.5784 1333.4 36.5157
42.8674 1407.77 37.5203
43.1564 610 24.6982
43.4454 402.741 20.0684
43.7344 356.151 18.872
44.0234 372.783 19.3076
44.3124 346.054 18.6025
44.6014 335.594 18.3192
44.8904 333.333 18.2574
45.1794 344.616 18.5638
45.4684 330.656 18.184
45.7574 308.829 17.5735
46.0464 310.295 17.6152
46.3354 323.949 17.9986
46.6244 309.836 17.6021
46.9134 299.837 17.3158
47.2024 294.819 17.1703
47.4914 305.702 17.4843
47.7804 303.65 17.4256
48.0694 296.358 17.215
48.3584 312.436 17.6758
48.6474 310.208 17.6127
48.9364 319.943 17.8869
49.2254 427.817 20.6837
49.5144 559.217 23.6478
49.8034 699.881 26.4553
50.0924 460.615 21.4619
50.3814 372.415 19.2981
50.6704 320.954 17.9152
50.9594 320.033 17.8895
51.2484 365.796 19.1258
51.5374 370.355 19.2446
51.8264 366.706 19.1496
52.1154 388.371 19.7071
52.4044 395.76 19.8937
52.6934 440.666 20.992
52.9824 432.034 20.7854
53.2714 353.846 18.8108
53.5604 299.792 17.3145
53.8494 303.47 17.4204
54.1384 297.677 17.2533
54.4274 274.755 16.5757
54.7164 271.045 16.4635
55.0054 274.865 16.5791
55.2944 296.427 17.2171
55.5834 286.019 16.9121
55.8724 283.191 16.8283
56.1614 279.14 16.7075
56.4504 258.64 16.0823
56.7394 293.576 17.1341
57.0284 264.262 16.2561
57.3174 294.368 17.1571
57.6064 270.689 16.4526
57.8954 261.006 16.1557
58.1844 265.556 16.2959
58.4734 271.928 16.4902
58.7624 307.483 17.5352
59.0514 263.531 16.2336
59.3404 279.026 16.7041
59.6294 284.312 16.8616
59.9184 282.193 16.7986
60.2074 291.685 17.0788
60.4964 303.796 17.4297
60.7854 342.248 18.5
61.0744 297.497 17.2481
61.3634 319.522 17.8752
61.6524 335.657 18.3209
61.9414 350.372 18.7182
62.2304 311.592 17.652
62.5194 337.454 18.3699
62.8084 364.011 19.0791
63.0974 412.113 20.3006
63.3864 346.396 18.6117
63.6754 298.5 17.2772
63.9644 267.274 16.3485
64.2534 273.325 16.5325
64.5424 316.693 17.7959
64.8314 276.6 16.6313
65.1204 268.185 16.3764
65.4094 280.721 16.7547
65.6984 278.434 16.6863
65.9874 265.277 16.2873
66.2764 288.565 16.9872
66.5654 295.797 17.1988
66.8544 287.312 16.9503
67.1434 271.994 16.4923
67.4324 288.67 16.9903
67.7214 276.275 16.6215
68.0104 273.636 16.542
68.2994 271.948 16.4908
68.5884 277.107 16.6465
68.8774 283.944 16.8506
69.1664 293.531 17.1327
69.4554 269.498 16.4164
69.7444 283.414 16.8349
70.0334 241.739 15.548
70.3224 264.484 16.263
70.6114 283.072 16.8247
70.9004 252.287 15.8836
71.1894 285.859 16.9074
71.4784 287.444 16.9542
71.7674 258.412 16.0752
72.0564 279.571 16.7204
72.3454 324.393 18.0109
72.6344 334.044 18.2769
72.9234 403.891 20.097
73.2124 378.318 19.4504
73.5014 307.842 17.5454
73.7904 283.337 16.8326
74.0794 291.796 17.082
74.3684 297.084 17.2361
74.6574 273.922 16.5506
74.9464 252.401 15.8871
75.2354 258.018 16.0629
75.5244 271.626 16.4811
75.8134 276.116 16.6167
76.1024 290.799 17.0528
76.3914 273.646 16.5423
76.6804 272.11 16.4957
76.9694 270.732 16.4539
77.2584 265.579 16.2966
77.5474 247.236 15.7237
77.8364 248.931 15.7775
78.1254 257.157 16.0361
78.4144 256.3 16.0094
78.7034 232.278 15.2407
78.9924 284.732 16.874
79.2814 245.225 15.6597
79.5704 242.424 15.57
79.8594 243.101 15.5917
80.1484 252.81 15.9
80.4374 259.643 16.1135
80.7264 284.136 16.8563
81.0154 260.497 16.1399
81.3044 241.031 15.5252
81.5934 271.221 16.4688
81.8824 257.8 16.0561
82.1714 254.769 15.9615
82.4604 281.409 16.7753
82.7494 254.979 15.9681
83.0384 257.389 16.0433
83.3274 253.784 15.9306
83.6164 264.031 16.249
83.9054 287.033 16.942
84.1944 284.438 16.8653
84.4834 288.183 16.976
84.7724 282.867 16.8186
85.0614 264.964 16.2777
85.3504 263.303 16.2266
85.6394 292.381 17.0991
85.9284 263.003 16.2174
86.2174 269.352 16.4119
86.5064 289.236 17.007
86.7954 276.387 16.6249
87.0844 296.495 17.219
87.3734 277.072 16.6455
87.6624 319 17.8606
87.9514 317.116 17.8077
88.2404 343.912 18.5449
88.5294 363.54 19.0667
88.8184 366.251 19.1377
89.1074 302.252 17.3854
89.3964 278.145 16.6777
89.6854 278.18 16.6787
89.9744 284.282 16.8607
89.9914 267.55 16.357

File: TiVNbHfCr_5-90deg_OEC_1_06dec23_from MATCH.csv
Peak list for sample TiVNbHfCr_5-90deg_OEC_1_06dec23
2theta;Peak height;FWHM
31.61;637.4;0.4420
35.64;71.5;0.5440
36.66;138.3;0.4420
39.37;61.1;0.3400
41.35;119.6;0.5100
42.73;1000.0;0.5780
49.75;296.3;0.6120
52.80;115.6;0.7820
62.94;73.8;0.5440
72.99;85.4;0.9520
88.55;75.5;1.0200